Folder: Financial-analysis/data/raw

Note: README.md
# Financial-analysis

Contains raw data for each stock based on close data for 2000+ stocks in data/raw

data/stats/avg contains the average amount that a stock changed based on the weekday, with the number of each weekday

File: TGA
,adj_close,adj_high,adj_low,adj_open,adj_volume,close,ex_dividend,high,low,open,split_ratio,volume
2017-02-10,1.79,1.83,1.7,1.7,409334.0,1.79,0.0,1.83,1.7,1.7,1.0,409334.0
2016-11-28,1.77,1.8,1.7589,1.78,17466.0,1.77,0.0,1.8,1.7589,1.78,1.0,17466.0
2016-09-15,1.95,1.98,1.88,1.91,131823.0,1.95,0.0,1.98,1.88,1.91,1.0,131823.0
2016-07-05,1.8,1.83,1.75,1.82,60275.0,1.8,0.0,1.83,1.75,1.82,1.0,60275.0
2016-04-21,1.89,2.1,1.86,2.1,105721.0,1.89,0.0,2.1,1.86,2.1,1.0,105721.0
2016-02-08,1.23,1.26,1.1799,1.23,147847.0,1.23,0.0,1.26,1.1799,1.23,1.0,147847.0
2015-11-23,1.99988,2.05899,1.95062,1.97033,281611.0,2.03,0.0,2.09,1.98,2.0,1.0,281611.0
2015-09-11,2.63039,2.65994,2.52202,2.65994,111328.0,2.67,0.05,2.7,2.56,2.7,1.0,111328.0
2015-06-30,3.85854,3.88756,3.81019,3.82953,95951.0,3.99,0.0,4.02,3.94,3.96,1.0,95951.0
2015-04-17,4.08876,4.2034,4.03144,4.17474,237369.0,4.28,0.0,4.4,4.22,4.37,1.0,237369.0
2015-02-03,3.09857,3.28626,3.02345,3.05162,488710.0,3.3,0.0,3.4999,3.22,3.25,1.0,488710.0
2014-11-18,3.56357,3.6282,3.53864,3.59127,168958.0,3.86,0.0,3.93,3.833,3.89,1.0,168958.0
2014-09-08,5.77889,6.02617,5.7331,6.00785,147600.0,6.31,0.0,6.58,6.26,6.56,1.0,147600.0
2014-06-25,6.57567,6.66725,6.49324,6.64893,124700.0,7.18,0.0,7.28,7.09,7.26,1.0,124700.0
2014-04-11,6.41132,6.55459,6.41132,6.51878,52600.0,7.16,0.0,7.32,7.16,7.28,1.0,52600.0
2014-01-29,6.73368,6.92172,6.51878,6.56355,170300.0,7.52,0.0,7.73,7.28,7.33,1.0,170300.0
2013-11-13,8.08579,8.17533,7.68284,7.68284,212100.0,9.03,0.0,9.13,8.58,8.58,1.0,212100.0
2013-09-03,6.32178,6.43819,6.27701,6.3576,159800.0,7.06,0.0,7.19,7.01,7.1,1.0,159800.0
2013-06-20,5.45321,6.27701,5.4353,6.26805,281200.0,6.09,0.0,7.01,6.07,7.0,1.0,281200.0
2013-04-09,6.82322,6.8859,6.75159,6.78741,74900.0,7.62,0.0,7.69,7.54,7.58,1.0,74900.0
2013-01-24,7.40526,7.88879,7.3963,7.77239,220500.0,8.27,0.0,8.81,8.26,8.68,1.0,220500.0
2012-11-08,10.5303,10.8348,10.5124,10.5841,81400.0,11.76,0.0,12.1,11.74,11.82,1.0,81400.0
2012-08-24,9.48267,9.60803,9.36626,9.36626,66800.0,10.59,0.0,10.73,10.46,10.46,1.0,66800.0
2012-06-13,8.77527,9.08868,8.68573,8.96332,244400.0,9.8,0.0,10.15,9.7,10.01,1.0,244400.0
2012-03-30,10.8169,10.8795,10.7631,10.8795,56800.0,12.08,0.0,12.15,12.02,12.15,1.0,56800.0
2012-01-18,7.95147,8.08579,7.87984,8.01415,91600.0,8.88,0.0,9.03,8.8,8.95,1.0,91600.0
2011-11-02,8.90959,9.06181,8.77527,8.96332,64500.0,9.95,0.0,10.12,9.8,10.01,1.0,64500.0
2011-08-22,7.65598,8.04102,7.62894,8.04102,123400.0,8.55,0.0,8.98,8.5198,8.98,1.0,123400.0
2011-06-09,11.9809,12.16,11.6765,11.7481,144700.0,13.38,0.0,13.58,13.04,13.12,1.0,144700.0
2011-03-28,13.0734,13.5211,12.5898,12.5898,481200.0,14.6,0.0,15.1,14.06,14.06,1.0,481200.0
2011-01-12,13.7181,13.7987,13.6106,13.7987,185600.0,15.32,0.0,15.41,15.2,15.41,1.0,185600.0
2010-10-29,9.40208,9.41999,9.22299,9.33044,87300.0,10.5,0.0,10.52,10.3,10.42,1.0,87300.0
2010-08-18,6.95754,7.04708,6.8859,6.95754,127200.0,7.77,0.0,7.87,7.69,7.77,1.0,127200.0
2010-06-07,6.63518,6.76054,6.58146,6.65309,194900.0,7.41,0.0,7.55,7.35,7.43,1.0,194900.0
2010-03-24,4.39659,4.45927,4.16378,4.22646,294300.0,4.91,0.0,4.98,4.65,4.72,1.0,294300.0
2010-01-08,3.46534,3.46534,3.30416,3.33998,87300.0,3.87,0.0,3.87,3.69,3.73,1.0,87300.0
2009-10-26,3.76083,3.98469,3.71606,3.94887,208600.0,4.2,0.0,4.45,4.15,4.41,1.0,208600.0
2009-08-13,2.85644,2.8833,2.78481,2.81167,183200.0,3.19,0.0,3.22,3.11,3.14,1.0,183200.0
2009-06-02,2.5699,2.5699,2.4535,2.4535,229300.0,2.87,0.0,2.87,2.74,2.74,1.0,229300.0
2009-03-19,2.41768,2.56095,2.41768,2.49827,265700.0,2.7,0.0,2.86,2.7,2.79,1.0,265700.0
2009-01-05,2.39081,2.39081,2.06846,2.37291,240200.0,2.67,0.0,2.67,2.31,2.65,1.0,240200.0
2008-10-21,1.80878,1.91355,1.68342,1.71924,115700.0,2.02,0.0,2.137,1.88,1.92,1.0,115700.0
2008-08-08,3.37579,3.50116,3.31311,3.44743,261700.0,3.77,0.0,3.91,3.7,3.85,1.0,261700.0
2008-05-28,4.63836,4.65627,4.4145,4.46823,171300.0,5.18,0.0,5.2,4.93,4.99,1.0,171300.0
2008-03-14,4.39659,4.57568,4.36077,4.55777,188900.0,4.91,0.0,5.11,4.87,5.09,1.0,188900.0
2007-12-31,4.54882,4.7279,4.52195,4.59359,154100.0,5.08,0.0,5.28,5.05,5.13,1.0,154100.0
2007-10-17,4.97862,5.04131,4.70104,4.73686,576200.0,5.56,0.0,5.63,5.25,5.29,1.0,576200.0
2007-08-06,3.57279,3.85038,3.51906,3.85038,397300.0,3.99,0.0,4.3,3.93,4.3,1.0,397300.0
2007-05-23,3.55488,3.58174,3.41161,3.4922,179500.0,3.97,0.0,4.0,3.81,3.9,1.0,179500.0
2007-03-12,4.01155,4.02051,3.9041,3.93096,154100.0,4.48,0.0,4.49,4.36,4.39,1.0,154100.0
2006-12-22,4.46823,4.53986,4.43241,4.45032,79300.0,4.99,0.0,5.07,4.95,4.97,1.0,79300.0
2006-10-11,4.2175,4.25332,3.93992,3.93992,219800.0,4.71,0.0,4.75,4.4,4.4,1.0,219800.0
2006-07-31,4.43241,4.45032,4.29809,4.29809,126300.0,4.95,0.0,4.97,4.8,4.8,1.0,126300.0
2006-05-17,4.62045,4.83536,4.62045,4.75477,153200.0,5.16,0.0,5.4,5.16,5.31,1.0,153200.0
2006-03-06,5.37262,5.56961,5.10399,5.25621,559600.0,6.0,0.0,6.22,5.7,5.87,1.0,559600.0
2005-12-19,4.81745,5.01444,4.78163,4.84431,273600.0,5.38,0.0,5.6,5.34,5.41,1.0,273600.0
2005-10-06,5.16667,5.40843,5.1398,5.40843,557100.0,5.77,0.0,6.04,5.74,6.04,1.0,557100.0
2005-07-26,5.46216,5.46216,5.32785,5.41739,271400.0,6.1,0.0,6.1,5.95,6.05,1.0,271400.0
2005-05-12,4.48614,4.7279,4.29809,4.66522,498800.0,5.01,0.0,5.28,4.8,5.21,1.0,498800.0
2005-03-01,6.85009,6.95754,6.26805,6.32178,1096900.0,7.65,0.0,7.77,7.0,7.06,1.0,1096900.0
2004-12-15,4.49509,4.52195,4.26228,4.26228,463500.0,5.02,0.0,5.05,4.76,4.76,1.0,463500.0
2004-10-04,2.93703,2.95494,2.8654,2.91017,237000.0,3.28,0.0,3.3,3.2,3.25,1.0,237000.0
2004-07-22,2.31023,2.32813,2.2565,2.31023,150100.0,2.58,0.0,2.6,2.52,2.58,1.0,150100.0
2004-05-07,2.08637,2.21173,2.0595,2.21173,84500.0,2.33,0.0,2.47,2.3,2.47,1.0,84500.0
2004-02-25,2.14905,2.158,2.12218,2.14905,208300.0,2.4,0.0,2.41,2.37,2.4,1.0,208300.0
2003-12-10,1.83564,2.01473,1.79087,1.97891,594400.0,2.05,0.0,2.25,2.0,2.21,1.0,594400.0
2003-09-29,0.904391,0.913345,0.850664,0.850664,163000.0,1.01,0.0,1.02,0.95,0.95,1.0,163000.0
2003-07-17,0.465627,0.465627,0.447718,0.456672,60100.0,0.52,0.0,0.52,0.5,0.51,1.0,60100.0
2003-05-05,0.438764,0.438764,0.429809,0.438764,63800.0,0.49,0.0,0.49,0.48,0.49,1.0,63800.0
2003-02-20,0.358174,0.358174,0.340266,0.358174,31400.0,0.4,0.0,0.4,0.38,0.4,1.0,31400.0
2002-12-05,0.277585,0.277585,0.250722,0.250722,33500.0,0.31,0.0,0.31,0.28,0.28,1.0,33500.0
2002-09-24,0.313403,0.322357,0.295494,0.295494,95000.0,0.35,0.0,0.36,0.33,0.33,1.0,95000.0
2002-07-12,0.268631,0.28654,0.268631,0.268631,13800.0,0.3,0.0,0.32,0.3,0.3,1.0,13800.0
2002-04-30,0.295494,0.295494,0.268631,0.28654,76000.0,0.33,0.0,0.33,0.3,0.32,1.0,76000.0
2002-02-14,0.268631,0.340266,0.268631,0.340266,2300.0,0.3,0.0,0.38,0.3,0.38,1.0,2300.0
2001-11-30,0.322357,0.331311,0.268631,0.295494,454500.0,0.36,0.0,0.37,0.3,0.33,1.0,454500.0
2001-09-19,0.232813,0.232813,0.214905,0.214905,45500.0,0.26,0.0,0.26,0.24,0.24,1.0,45500.0
2001-07-02,0.28654,0.28654,0.277585,0.277585,36400.0,0.32,0.0,0.32,0.31,0.31,1.0,36400.0
2001-04-19,0.34922,0.34922,0.322357,0.322357,11000.0,0.39,0.0,0.39,0.36,0.36,1.0,11000.0
2001-02-05,0.376083,0.376083,0.367129,0.367129,17100.0,0.42,0.0,0.42,0.41,0.41,1.0,17100.0
2000-11-20,0.617851,0.617851,0.617851,0.617851,2500.0,0.69,0.0,0.69,0.69,0.69,1.0,2500.0
2000-09-08,0.528307,0.573079,0.528307,0.573079,90400.0,0.59,0.0,0.64,0.59,0.64,1.0,90400.0
2000-06-27,0.501444,0.501444,0.429809,0.429809,157300.0,0.56,0.0,0.56,0.48,0.48,1.0,157300.0
2000-04-13,0.617851,0.626805,0.55517,0.573079,308700.0,0.69,0.0,0.7,0.62,0.64,1.0,308700.0
2000-02-01,0.420855,0.420855,0.393992,0.420855,61400.0,0.47,0.0,0.47,0.44,0.47,1.0,61400.0
1999-11-17,0.304448,0.367129,0.304448,0.340266,89400.0,0.34,0.0,0.41,0.34,0.38,1.0,89400.0
1999-09-07,0.393992,0.393992,0.340266,0.340266,215800.0,0.44,0.0,0.44,0.38,0.38,1.0,215800.0
1999-06-24,0.340266,0.340266,0.304448,0.340266,39800.0,0.38,0.0,0.38,0.34,0.38,1.0,39800.0
1999-04-13,0.14327,0.14327,0.107452,0.107452,21200.0,0.16,0.0,0.16,0.12,0.12,1.0,21200.0
1999-01-28,0.196996,0.196996,0.196996,0.196996,25000.0,0.22,0.0,0.22,0.22,0.22,1.0,25000.0
1998-11-12,0.14327,0.14327,0.14327,0.14327,2000.0,0.16,0.0,0.16,0.16,0.16,1.0,2000.0
1998-09-01,0.179087,0.295494,0.179087,0.295494,2100.0,0.2,0.0,0.33,0.2,0.33,1.0,2100.0
1998-06-19,0.501444,0.55517,0.501444,0.55517,20200.0,0.56,0.0,0.62,0.56,0.62,1.0,20200.0
1998-04-07,0.84171,0.84171,0.787984,0.787984,9500.0,0.94,0.0,0.94,0.88,0.88,1.0,9500.0
1998-01-23,1.00289,1.00289,0.949162,1.00289,33800.0,1.12,0.0,1.12,1.06,1.12,1.0,33800.0
1997-11-07,1.17302,1.26256,1.17302,1.26256,20000.0,1.31,0.0,1.41,1.31,1.41,1.0,20000.0
1997-08-27,1.56701,2.13114,1.1193,1.34315,195400.0,1.75,0.0,2.38,1.25,1.5,1.0,195400.0
1997-06-16,1.2357,1.34315,1.2357,1.2357,71300.0,1.38,0.0,1.5,1.38,1.38,1.0,71300.0
1997-04-03,1.54015,1.56701,1.51329,1.56701,19100.0,1.72,0.0,1.75,1.69,1.75,1.0,19100.0
1997-01-20,1.96101,2.29232,1.8446,2.21173,409300.0,2.19,0.0,2.56,2.06,2.47,1.0,409300.0
1996-11-05,1.96101,1.96101,1.68342,1.68342,20700.0,2.19,0.0,2.19,1.88,1.88,1.0,20700.0
1996-08-23,2.85644,2.91017,2.68631,2.85644,90800.0,3.19,0.0,3.25,3.0,3.19,1.0,90800.0
1996-06-12,3.41161,3.58174,3.24148,3.24148,22400.0,3.81,0.0,4.0,3.62,3.62,1.0,22400.0
1996-03-29,3.92201,3.92201,3.58174,3.6892,116800.0,4.38,0.0,4.38,4.0,4.12,1.0,116800.0
1996-01-17,2.43559,2.57886,2.29232,2.57886,15800.0,2.72,0.0,2.88,2.56,2.88,1.0,15800.0
1995-11-02,4.58463,4.70104,4.36973,4.47718,58200.0,5.12,0.0,5.25,4.88,5.0,1.0,58200.0
1995-08-22,4.36973,4.36973,4.13691,4.1996,22700.0,4.88,0.0,4.88,4.62,4.69,1.0,22700.0
1995-06-09,1.79087,2.01473,1.79087,2.01473,28700.0,2.0,0.0,2.25,2.0,2.25,1.0,28700.0
1995-03-28,2.57886,2.79376,2.57886,2.79376,7800.0,2.88,0.0,3.12,2.88,3.12,1.0,7800.0
1995-01-13,3.13403,3.24148,2.91017,3.02657,18900.0,3.5,0.0,3.62,3.25,3.38,1.0,18900.0
1994-10-31,4.25332,4.42345,4.02946,4.02946,202400.0,4.75,0.0,4.94,4.5,4.5,1.0,202400.0
1994-08-18,3.52802,3.58174,3.47429,3.47429,23100.0,3.94,0.0,4.0,3.88,3.88,1.0,23100.0
1994-06-07,4.81745,4.81745,4.47718,4.70104,23900.0,5.38,0.0,5.38,5.0,5.25,1.0,23900.0
1994-05-10,4.36973,4.58463,4.36973,4.47718,13600.0,4.88,0.0,5.12,4.88,5.0,1.0,13600.0