Folder: Financial-analysis/data/with_dotw

Note: README.md
# Financial-analysis

Contains raw data for each stock based on close data for 2000+ stocks in data/raw

data/stats/avg contains the average amount that a stock changed based on the weekday, with the number of each weekday

File: TGA
,Unnamed: 0,adj_close,adj_high,adj_low,adj_open,adj_volume,close,ex_dividend,high,low,open,split_ratio,volume,Day of Week
0,2017-02-10,1.79,1.83,1.7,1.7,409334.0,1.79,0.0,1.83,1.7,1.7,1.0,409334.0,4
55,2016-11-21,1.83,1.84,1.8,1.83,65396.0,1.83,0.0,1.84,1.8,1.83,1.0,65396.0,0
110,2016-09-02,1.9,1.93,1.87,1.91,32262.0,1.9,0.0,1.93,1.87,1.91,1.0,32262.0,4
165,2016-06-16,1.6,1.62,1.55,1.61,151267.0,1.6,0.0,1.62,1.55,1.61,1.0,151267.0,3
220,2016-03-30,1.69,1.72,1.63,1.66,149465.0,1.69,0.0,1.72,1.63,1.66,1.0,149465.0,2
275,2016-01-08,1.66,1.72,1.56,1.64,207452.0,1.66,0.0,1.72,1.56,1.64,1.0,207452.0,4
330,2015-10-20,2.69935,2.73984,2.63039,2.63039,114020.0,2.74,0.0,2.7811,2.67,2.67,1.0,114020.0,1
385,2015-08-03,2.8238,2.89149,2.78511,2.83347,48714.0,2.92,0.0,2.99,2.88,2.93,1.0,48714.0,0
440,2015-05-14,3.85948,4.01711,3.85948,3.96457,155316.0,4.04,0.0,4.205,4.04,4.15,1.0,155316.0,3
495,2015-02-25,2.84505,2.84505,2.67603,2.72298,222436.0,3.03,0.0,3.03,2.85,2.9,1.0,222436.0,2
550,2014-12-04,3.1112,3.12966,2.88963,3.02811,392845.0,3.37,0.0,3.39,3.13,3.28,1.0,392845.0,3
605,2014-09-17,6.00083,6.10238,5.98237,6.06546,78100.0,6.5,0.0,6.61,6.48,6.57,1.0,78100.0,2
660,2014-06-30,6.85958,6.942,6.7222,6.75883,70100.0,7.49,0.0,7.58,7.34,7.38,1.0,70100.0,0
715,2014-04-10,6.54564,6.77845,6.50087,6.73368,57600.0,7.31,0.0,7.57,7.26,7.52,1.0,57600.0,3
770,2014-01-22,7.42317,7.54853,7.34258,7.50375,103800.0,8.29,0.0,8.43,8.2,8.38,1.0,103800.0,2
825,2013-10-31,8.12161,8.19324,7.88029,8.1037,150100.0,9.07,0.0,9.15,8.8005,9.05,1.0,150100.0,3
880,2013-08-14,5.78452,5.98151,5.64572,5.79347,129600.0,6.46,0.0,6.68,6.305,6.47,1.0,129600.0,2
935,2013-05-28,6.59936,6.69786,6.5143,6.69786,83400.0,7.37,0.0,7.48,7.275,7.48,1.0,83400.0,1
990,2013-03-08,8.0052,8.04102,7.79029,7.92461,139500.0,8.94,0.0,8.98,8.7,8.85,1.0,139500.0,4
1045,2012-12-17,8.68573,8.7305,8.60514,8.68573,197700.0,9.7,0.0,9.75,9.61,9.7,1.0,197700.0,0
1100,2012-09-26,9.25881,9.45581,9.10659,9.45581,131400.0,10.34,0.0,10.56,10.17,10.56,1.0,131400.0,2
1155,2012-07-10,7.87088,8.05893,7.82611,7.96043,102300.0,8.79,0.0,9.0,8.74,8.89,1.0,102300.0,1
1210,2012-04-20,11.8108,12.1869,11.766,12.0347,57200.0,13.19,0.0,13.61,13.14,13.44,1.0,57200.0,4
1265,2012-02-01,9.36626,9.54535,8.68573,8.80214,216800.0,10.46,0.0,10.66,9.7,9.83,1.0,216800.0,2
1320,2011-11-10,8.30069,8.67678,8.23801,8.67678,201300.0,9.27,0.0,9.69,9.2,9.69,1.0,201300.0,3
1375,2011-08-24,8.16638,8.2201,7.88879,8.03206,93500.0,9.12,0.0,9.18,8.81,8.97,1.0,93500.0,2
1430,2011-06-07,12.1511,12.3302,12.0257,12.2227,68500.0,13.57,0.0,13.77,13.43,13.65,1.0,68500.0,1
1485,2011-03-18,12.0973,12.2675,12.0436,12.1421,143300.0,13.51,0.0,13.7,13.45,13.56,1.0,143300.0,4
1540,2010-12-29,14.4434,14.7022,14.1479,14.318,554400.0,16.13,0.0,16.419,15.8,15.99,1.0,554400.0,2
1595,2010-10-11,8.75737,8.96332,8.7305,8.86482,101000.0,9.78,0.0,10.01,9.75,9.9,1.0,101000.0,0
1650,2010-07-23,6.71577,6.76054,6.50087,6.52773,156000.0,7.5,0.0,7.55,7.26,7.29,1.0,156000.0,4
1705,2010-05-05,6.44266,6.63518,6.40237,6.40237,378100.0,7.195,0.0,7.41,7.15,7.15,1.0,378100.0,2
1760,2010-02-16,3.4922,3.4922,3.3937,3.42057,97200.0,3.9,0.0,3.9,3.79,3.82,1.0,97200.0,1
1815,2009-11-24,3.23252,3.31311,3.16089,3.23252,209300.0,3.61,0.0,3.7,3.53,3.61,1.0,209300.0,1
1870,2009-09-08,3.01762,3.08925,2.97285,2.97285,112500.0,3.37,0.0,3.45,3.32,3.32,1.0,112500.0,1
1925,2009-06-19,2.42663,2.46245,2.39081,2.41768,82400.0,2.71,0.0,2.75,2.67,2.7,1.0,82400.0,4
1980,2009-04-01,2.4714,2.51618,2.42663,2.44454,91800.0,2.76,0.0,2.81,2.71,2.73,1.0,91800.0,2
2035,2009-01-12,2.13114,2.28336,2.11323,2.23859,189200.0,2.38,0.0,2.55,2.36,2.5,1.0,189200.0,0
2090,2008-10-22,1.62074,1.82669,1.60283,1.82669,79300.0,1.81,0.0,2.04,1.79,2.04,1.0,79300.0,2
2145,2008-08-05,3.51906,3.58174,3.44743,3.4922,217700.0,3.93,0.0,4.0,3.85,3.9,1.0,217700.0,1
2200,2008-05-16,4.47718,4.55777,4.36077,4.38764,268800.0,5.0,0.0,5.09,4.87,4.9,1.0,268800.0,4
2255,2008-02-28,5.08608,5.19353,4.90699,4.90699,398400.0,5.68,0.0,5.8,5.48,5.48,1.0,398400.0,3
2310,2007-12-07,4.77267,4.81745,4.68313,4.71895,145800.0,5.33,0.0,5.38,5.23,5.27,1.0,145800.0,4
2365,2007-09-20,4.19279,4.28018,4.13691,4.28018,153900.0,4.6824,0.0,4.78,4.62,4.78,1.0,153900.0,3
2420,2007-07-03,3.97538,4.02946,3.96678,4.02946,98100.0,4.4396,0.0,4.5,4.43,4.5,1.0,98100.0,1
2475,2007-04-16,3.51011,3.58174,3.50116,3.53697,328800.0,3.92,0.0,4.0,3.91,3.95,1.0,328800.0,0
2530,2007-01-25,4.35182,4.6294,4.32496,4.6115,260500.0,4.86,0.0,5.17,4.83,5.15,1.0,260500.0,3
2585,2006-11-02,4.08319,4.19064,4.04737,4.18169,88500.0,4.56,0.0,4.68,4.52,4.67,1.0,88500.0,3
2640,2006-08-16,4.29809,4.34287,4.26228,4.30705,69300.0,4.8,0.0,4.85,4.76,4.81,1.0,69300.0,2
2695,2006-05-30,4.55777,4.69209,4.53091,4.6115,109100.0,5.09,0.0,5.24,5.06,5.15,1.0,109100.0,1
2750,2006-03-10,4.94281,4.96072,4.87117,4.90699,170900.0,5.52,0.0,5.54,5.44,5.48,1.0,170900.0,4
2805,2005-12-19,4.81745,5.01444,4.78163,4.84431,273600.0,5.38,0.0,5.6,5.34,5.41,1.0,273600.0,0
2860,2005-09-30,5.63229,5.68602,5.60543,5.66811,182500.0,6.29,0.0,6.35,6.26,6.33,1.0,182500.0,4
2915,2005-07-14,5.88302,6.11583,5.8472,6.0621,456600.0,6.57,0.0,6.83,6.53,6.77,1.0,456600.0,3
2970,2005-04-26,5.46216,5.49798,5.28307,5.30994,694200.0,6.1,0.0,6.14,5.9,5.93,1.0,694200.0,1
3025,2005-02-04,6.1606,6.26805,6.00838,6.01733,503700.0,6.88,0.0,7.0,6.71,6.72,1.0,503700.0,4
3080,2004-11-16,3.28625,3.31311,3.23252,3.23252,254700.0,3.67,0.0,3.7,3.61,3.61,1.0,254700.0,1
3135,2004-08-30,2.10427,2.14905,2.09532,2.10427,52200.0,2.35,0.0,2.4,2.34,2.35,1.0,52200.0,0
3190,2004-06-10,2.08637,2.10427,1.98787,1.98787,134300.0,2.33,0.0,2.35,2.22,2.22,1.0,134300.0,3
3245,2004-03-23,2.10427,2.16696,2.04159,2.16696,128300.0,2.35,0.0,2.42,2.28,2.42,1.0,128300.0,1
3300,2004-01-02,2.2565,2.27441,2.19382,2.22068,386600.0,2.52,0.0,2.54,2.45,2.48,1.0,386600.0,4
3355,2003-10-14,1.1193,1.18198,1.07452,1.11034,623700.0,1.25,0.0,1.32,1.2,1.24,1.0,623700.0,1
3410,2003-07-28,0.465627,0.465627,0.456672,0.465627,65300.0,0.52,0.0,0.52,0.51,0.52,1.0,65300.0,0
3465,2003-05-08,0.429809,0.447718,0.429809,0.447718,21000.0,0.48,0.0,0.5,0.48,0.5,1.0,21000.0,3
3520,2003-02-19,0.358174,0.358174,0.340266,0.340266,18600.0,0.4,0.0,0.4,0.38,0.38,1.0,18600.0,2
3575,2002-11-27,0.277585,0.277585,0.259676,0.259676,35400.0,0.31,0.0,0.31,0.29,0.29,1.0,35400.0,2
3630,2002-09-11,0.268631,0.268631,0.268631,0.268631,2500.0,0.3,0.0,0.3,0.3,0.3,1.0,2500.0,2
3685,2002-06-24,0.340266,0.340266,0.331311,0.331311,2900.0,0.38,0.0,0.38,0.37,0.37,1.0,2900.0,0
3740,2002-04-05,0.34922,0.34922,0.304448,0.340266,122000.0,0.39,0.0,0.39,0.34,0.38,1.0,122000.0,4
3795,2002-01-15,0.358174,0.376083,0.358174,0.376083,32700.0,0.4,0.0,0.42,0.4,0.42,1.0,32700.0,1
3850,2001-10-25,0.179087,0.179087,0.152224,0.152224,6000.0,0.2,0.0,0.2,0.17,0.17,1.0,6000.0,3
3905,2001-08-02,0.268631,0.268631,0.268631,0.268631,6400.0,0.3,0.0,0.3,0.3,0.3,1.0,6400.0,3
3960,2001-05-15,0.304448,0.331311,0.304448,0.322357,62500.0,0.34,0.0,0.37,0.34,0.36,1.0,62500.0,1
4015,2001-02-26,0.393992,0.402946,0.367129,0.367129,227800.0,0.44,0.0,0.45,0.41,0.41,1.0,227800.0,0
4070,2000-12-05,0.447718,0.49249,0.429809,0.49249,17900.0,0.5,0.0,0.55,0.48,0.55,1.0,17900.0,1
4125,2000-09-18,0.617851,0.626805,0.590988,0.617851,26100.0,0.69,0.0,0.7,0.66,0.69,1.0,26100.0,0
4180,2000-06-29,0.447718,0.49249,0.447718,0.49249,30900.0,0.5,0.0,0.55,0.5,0.55,1.0,30900.0,3
4235,2000-04-11,0.55517,0.55517,0.49249,0.55517,32300.0,0.62,0.0,0.62,0.55,0.62,1.0,32300.0,1
4290,2000-01-24,0.34922,0.34922,0.304448,0.34922,54600.0,0.39,0.0,0.39,0.34,0.39,1.0,54600.0,0
4345,1999-11-03,0.322357,0.340266,0.304448,0.322357,127500.0,0.36,0.0,0.38,0.34,0.36,1.0,127500.0,2
4400,1999-08-17,0.367129,0.393992,0.367129,0.393992,16900.0,0.41,0.0,0.44,0.41,0.44,1.0,16900.0,1
4455,1999-05-28,0.304448,0.304448,0.304448,0.304448,15200.0,0.34,0.0,0.34,0.34,0.34,1.0,15200.0,4
4510,1999-03-11,0.196996,0.20595,0.179087,0.196996,26500.0,0.22,0.0,0.23,0.2,0.22,1.0,26500.0,3
4565,1998-12-18,0.14327,0.170133,0.14327,0.170133,7300.0,0.16,0.0,0.19,0.16,0.19,1.0,7300.0,4
4620,1998-10-01,0.170133,0.170133,0.170133,0.170133,900.0,0.19,0.0,0.19,0.19,0.19,1.0,900.0,3
4675,1998-07-15,0.420855,0.528307,0.420855,0.528307,86900.0,0.47,0.0,0.59,0.47,0.59,1.0,86900.0,2
4730,1998-04-27,0.725303,0.725303,0.671577,0.671577,33800.0,0.81,0.0,0.81,0.75,0.75,1.0,33800.0,0
4785,1998-02-05,1.0208,1.1193,1.00289,1.09243,59800.0,1.14,0.0,1.25,1.12,1.22,1.0,59800.0,3
4840,1997-11-14,0.949162,1.00289,0.949162,1.00289,16700.0,1.06,0.0,1.12,1.06,1.12,1.0,16700.0,4
4895,1997-08-28,1.31629,1.56701,1.28943,1.34315,180300.0,1.47,0.0,1.75,1.44,1.5,1.0,180300.0,3
4950,1997-06-11,1.51329,1.51329,1.39688,1.45061,16700.0,1.69,0.0,1.69,1.56,1.62,1.0,16700.0,2
5005,1997-03-24,1.62074,1.68342,1.56701,1.62074,44000.0,1.81,0.0,1.88,1.75,1.81,1.0,44000.0,0
5060,1997-01-03,0.949162,1.06557,0.895436,0.949162,62500.0,1.06,0.0,1.19,1.0,1.06,1.0,62500.0,4
5115,1996-10-15,2.34604,2.34604,2.06846,2.23859,28400.0,2.62,0.0,2.62,2.31,2.5,1.0,28400.0,1
5170,1996-07-29,2.91017,2.96389,2.68631,2.91017,57800.0,3.25,0.0,3.31,3.0,3.25,1.0,57800.0,0
5225,1996-05-09,4.25332,4.36973,3.8056,4.36973,146200.0,4.75,0.0,4.88,4.25,4.88,1.0,146200.0,3
5280,1996-02-21,2.68631,2.68631,2.46245,2.46245,5700.0,3.0,0.0,3.0,2.75,2.75,1.0,5700.0,2
5335,1995-12-01,3.8056,4.02946,3.78769,3.8056,22100.0,4.25,0.0,4.5,4.23,4.25,1.0,22100.0,4
5390,1995-09-14,5.03235,5.37262,4.81745,4.9249,178400.0,5.62,0.0,6.0,5.38,5.5,1.0,178400.0,3
5445,1995-06-27,2.68631,2.68631,2.01473,2.01473,91400.0,3.0,0.0,3.0,2.25,2.25,1.0,91400.0,1
5500,1995-04-07,2.68631,2.91017,2.46245,2.91017,31600.0,3.0,0.0,3.25,2.75,3.25,1.0,31600.0,4
5555,1995-01-19,2.91017,2.91017,2.79376,2.79376,7000.0,3.25,0.0,3.25,3.12,3.12,1.0,7000.0,3
5610,1994-10-31,4.25332,4.42345,4.02946,4.02946,202400.0,4.75,0.0,4.94,4.5,4.5,1.0,202400.0,0
5665,1994-08-12,3.47429,3.50116,3.35789,3.47429,28200.0,3.88,0.0,3.91,3.75,3.88,1.0,28200.0,4
5720,1994-05-25,3.97574,4.13691,3.92201,3.92201,13500.0,4.44,0.0,4.62,4.38,4.38,1.0,13500.0,2
5731,1994-05-10,4.36973,4.58463,4.36973,4.47718,13600.0,4.88,0.0,5.12,4.88,5.0,1.0,13600.0,1